File: artifacts/data.csv
,_id,Cement (component 1)(kg in a m^3 mixture),Blast Furnace Slag (component 2)(kg in a m^3 mixture),Fly Ash (component 3)(kg in a m^3 mixture),Water  (component 4)(kg in a m^3 mixture),Superplasticizer (component 5)(kg in a m^3 mixture),Coarse Aggregate  (component 6)(kg in a m^3 mixture),Fine Aggregate (component 7)(kg in a m^3 mixture),Age (day),"Concrete compressive strength(MPa, megapascals) "
0,65c21d0abf85afd03721ab7b,540.0,0.0,0.0,162.0,2.5,1040.0,676.0,28.0,79.9861
2,65c21d0abf85afd03721ab7d,332.5,142.5,0.0,228.0,0.0,932.0,594.0,270.0,40.2695
4,65c21d0abf85afd03721ab7f,198.6,132.4,0.0,192.0,0.0,978.4,825.5,360.0,44.2961
6,65c21d0abf85afd03721ab81,380.0,95.0,0.0,228.0,0.0,932.0,594.0,365.0,43.6983
8,65c21d0abf85afd03721ab83,266.0,114.0,0.0,228.0,0.0,932.0,670.0,28.0,45.8543
10,65c21d0abf85afd03721ab85,198.6,132.4,0.0,192.0,0.0,978.4,825.5,90.0,38.0742
12,65c21d0abf85afd03721ab87,427.5,47.5,0.0,228.0,0.0,932.0,594.0,270.0,43.013
14,65c21d0abf85afd03721ab89,304.0,76.0,0.0,228.0,0.0,932.0,670.0,28.0,47.8138
16,65c21d0abf85afd03721ab8b,139.6,209.4,0.0,192.0,0.0,1047.0,806.9,90.0,39.358
18,65c21d0abf85afd03721ab8d,380.0,95.0,0.0,228.0,0.0,932.0,594.0,90.0,40.5633
20,65c21d0abf85afd03721ab8f,427.5,47.5,0.0,228.0,0.0,932.0,594.0,180.0,41.8367
22,65c21d0abf85afd03721ab91,139.6,209.4,0.0,192.0,0.0,1047.0,806.9,3.0,8.06342
24,65c21d0abf85afd03721ab93,380.0,0.0,0.0,228.0,0.0,932.0,670.0,365.0,52.5167
26,65c21d0abf85afd03721ab95,380.0,95.0,0.0,228.0,0.0,932.0,594.0,270.0,41.1514
28,65c21d0abf85afd03721ab97,427.5,47.5,0.0,228.0,0.0,932.0,594.0,28.0,37.4275
30,65c21d0abf85afd03721ab99,304.0,76.0,0.0,228.0,0.0,932.0,670.0,365.0,55.2601
32,65c21d0abf85afd03721ab9b,198.6,132.4,0.0,192.0,0.0,978.4,825.5,180.0,41.7195
34,65c21d0abf85afd03721ab9d,190.0,190.0,0.0,228.0,0.0,932.0,670.0,365.0,53.6923
36,65c21d0abf85afd03721ab9f,237.5,237.5,0.0,228.0,0.0,932.0,594.0,28.0,30.0798
38,65c21d0abf85afd03721aba1,475.0,0.0,0.0,228.0,0.0,932.0,594.0,90.0,42.229
40,65c21d0abf85afd03721aba3,342.0,38.0,0.0,228.0,0.0,932.0,670.0,90.0,50.4593
42,65c21d0abf85afd03721aba5,237.5,237.5,0.0,228.0,0.0,932.0,594.0,365.0,38.9954
44,65c21d0abf85afd03721aba7,427.5,47.5,0.0,228.0,0.0,932.0,594.0,90.0,41.543
46,65c21d0abf85afd03721aba9,349.0,0.0,0.0,192.0,0.0,1047.0,806.9,3.0,15.0492
48,65c21d0abf85afd03721abab,237.5,237.5,0.0,228.0,0.0,932.0,594.0,7.0,26.258
50,65c21d0abf85afd03721abad,332.5,142.5,0.0,228.0,0.0,932.0,594.0,180.0,39.7793
52,65c21d0abf85afd03721abaf,237.5,237.5,0.0,228.0,0.0,932.0,594.0,90.0,33.1169
54,65c21d0abf85afd03721abb1,139.6,209.4,0.0,192.0,0.0,1047.0,806.9,7.0,14.5893
56,65c21d0abf85afd03721abb3,475.0,0.0,0.0,228.0,0.0,932.0,594.0,365.0,41.9346
58,65c21d0abf85afd03721abb5,304.0,76.0,0.0,228.0,0.0,932.0,670.0,180.0,50.9488
60,65c21d0abf85afd03721abb7,304.0,76.0,0.0,228.0,0.0,932.0,670.0,270.0,54.3783
62,65c21d0abf85afd03721abb9,310.0,0.0,0.0,192.0,0.0,971.0,850.6,3.0,9.8664
64,65c21d0abf85afd03721abbb,266.0,114.0,0.0,228.0,0.0,932.0,670.0,180.0,48.6956
66,65c21d0abf85afd03721abbd,139.6,209.4,0.0,192.0,0.0,1047.0,806.9,360.0,44.698
68,65c21d0abf85afd03721abbf,190.0,190.0,0.0,228.0,0.0,932.0,670.0,28.0,40.857
70,65c21d0abf85afd03721abc1,374.0,189.2,0.0,170.1,10.1,926.1,756.7,3.0,34.398
72,65c21d0abf85afd03721abc3,425.0,106.3,0.0,153.5,16.5,852.1,887.1,3.0,33.3982
74,65c21d0abf85afd03721abc5,375.0,93.8,0.0,126.6,23.4,852.1,992.6,3.0,28.9994
76,65c21d0abf85afd03721abc7,469.0,117.2,0.0,137.8,32.2,852.1,840.5,3.0,40.1965
78,65c21d0abf85afd03721abc9,388.6,97.1,0.0,157.9,12.1,852.1,925.7,3.0,28.0961
80,65c21d0abf85afd03721abcb,425.0,106.3,0.0,153.5,16.5,852.1,887.1,3.0,33.3982
82,65c21d0abf85afd03721abcd,401.8,94.7,0.0,147.4,11.4,946.8,852.1,3.0,41.0997
84,65c21d0abf85afd03721abcf,323.7,282.8,0.0,183.8,10.3,942.7,659.9,3.0,28.2961
86,65c21d0abf85afd03721abd1,362.6,189.0,0.0,164.9,11.6,944.7,755.8,3.0,35.3012
88,65c21d0abf85afd03721abd3,362.6,189.0,0.0,164.9,11.6,944.7,755.8,3.0,35.3012
90,65c21d0abf85afd03721abd5,389.9,189.0,0.0,145.9,22.0,944.7,755.8,3.0,40.5963
92,65c21d0abf85afd03721abd7,337.9,189.0,0.0,174.9,9.5,944.7,755.8,3.0,24.0972
94,65c21d0abf85afd03721abd9,313.3,262.2,0.0,175.5,8.6,1046.9,611.8,7.0,42.7958
96,65c21d0abf85afd03721abdb,425.0,106.3,0.0,151.4,18.6,936.0,803.7,7.0,46.8016
98,65c21d0abf85afd03721abdd,475.0,118.8,0.0,181.1,8.9,852.1,781.5,7.0,55.5993
100,65c21d0abf85afd03721abdf,425.0,106.3,0.0,153.5,16.5,852.1,887.1,7.0,49.201
102,65c21d0abf85afd03721abe1,531.3,0.0,0.0,141.8,28.2,852.1,893.7,7.0,46.8982
104,65c21d0abf85afd03721abe3,318.8,212.5,0.0,155.7,14.3,852.1,880.4,7.0,33.3982
106,65c21d0abf85afd03721abe5,362.6,189.0,0.0,164.9,11.6,944.7,755.8,7.0,55.8958
108,65c21d0abf85afd03721abe7,379.5,151.2,0.0,153.9,15.9,1134.3,605.0,7.0,47.0981
110,65c21d0abf85afd03721abe9,286.3,200.9,0.0,144.7,11.2,1004.6,803.7,7.0,37.997
112,65c21d0abf85afd03721abeb,439.0,177.0,0.0,186.0,11.1,884.9,707.9,7.0,56.0958
114,65c21d0abf85afd03721abed,362.6,189.0,0.0,164.9,11.6,944.7,755.8,7.0,22.8975
116,65c21d0abf85afd03721abef,374.0,189.2,0.0,170.1,10.1,926.1,756.7,28.0,61.0945
118,65c21d0abf85afd03721abf1,425.0,106.3,0.0,153.5,16.5,852.1,887.1,28.0,60.2947
120,65c21d0abf85afd03721abf3,375.0,93.8,0.0,126.6,23.4,852.1,992.6,28.0,56.6956
122,65c21d0abf85afd03721abf5,469.0,117.2,0.0,137.8,32.2,852.1,840.5,28.0,66.8999
124,65c21d0abf85afd03721abf7,388.6,97.1,0.0,157.9,12.1,852.1,925.7,28.0,50.6972
126,65c21d0abf85afd03721abf9,425.0,106.3,0.0,153.5,16.5,852.1,887.1,28.0,60.2947
128,65c21d0abf85afd03721abfb,401.8,94.7,0.0,147.4,11.4,946.8,852.1,28.0,68.4994
130,65c21d0abf85afd03721abfd,323.7,282.8,0.0,183.8,10.3,942.7,659.9,28.0,74.6978
132,65c21d0abf85afd03721abff,362.6,189.0,0.0,164.9,11.6,944.7,755.8,28.0,71.2987
134,65c21d0abf85afd03721ac01,362.6,189.0,0.0,164.9,11.6,944.7,755.8,28.0,71.2987
136,65c21d0abf85afd03721ac03,389.9,189.0,0.0,145.9,22.0,944.7,755.8,28.0,74.4979
138,65c21d0abf85afd03721ac05,337.9,189.0,0.0,174.9,9.5,944.7,755.8,28.0,49.8974
140,65c21d0abf85afd03721ac07,313.3,262.2,0.0,175.5,8.6,1046.9,611.8,56.0,64.9004
142,65c21d0abf85afd03721ac09,425.0,106.3,0.0,151.4,18.6,936.0,803.7,56.0,64.9004
144,65c21d0abf85afd03721ac0b,475.0,118.8,0.0,181.1,8.9,852.1,781.5,56.0,72.2985
146,65c21d0abf85afd03721ac0d,425.0,106.3,0.0,153.5,16.5,852.1,887.1,56.0,64.3005
148,65c21d0abf85afd03721ac0f,531.3,0.0,0.0,141.8,28.2,852.1,893.7,56.0,58.7985
150,65c21d0abf85afd03721ac11,318.8,212.5,0.0,155.7,14.3,852.1,880.4,56.0,66.1001
152,65c21d0abf85afd03721ac13,362.6,189.0,0.0,164.9,11.6,944.7,755.8,56.0,77.2972
154,65c21d0abf85afd03721ac15,379.5,151.2,0.0,153.9,15.9,1134.3,605.0,56.0,54.8961
156,65c21d0abf85afd03721ac17,286.3,200.9,0.0,144.7,11.2,1004.6,803.7,56.0,72.9948
158,65c21d0abf85afd03721ac19,439.0,177.0,0.0,186.0,11.1,884.9,707.9,56.0,71.6986
160,65c21d0abf85afd03721ac1b,362.6,189.0,0.0,164.9,11.6,944.7,755.8,56.0,77.2972
162,65c21d0abf85afd03721ac1d,374.0,189.2,0.0,170.1,10.1,926.1,756.7,91.0,64.9004
164,65c21d0abf85afd03721ac1f,425.0,106.3,0.0,153.5,16.5,852.1,887.1,91.0,65.1969
166,65c21d0abf85afd03721ac21,375.0,93.8,0.0,126.6,23.4,852.1,992.6,91.0,62.501
168,65c21d0abf85afd03721ac23,469.0,117.2,0.0,137.8,32.2,852.1,840.5,91.0,70.6989
170,65c21d0abf85afd03721ac25,388.6,97.1,0.0,157.9,12.1,852.1,925.7,91.0,57.5988
172,65c21d0abf85afd03721ac27,425.0,106.3,0.0,153.5,16.5,852.1,887.1,91.0,65.1969
174,65c21d0abf85afd03721ac29,401.8,94.7,0.0,147.4,11.4,946.8,852.1,91.0,75.4976
176,65c21d0abf85afd03721ac2b,379.5,151.2,0.0,153.9,15.9,1134.3,605.0,91.0,56.4957
178,65c21d0abf85afd03721ac2d,286.3,200.9,0.0,144.7,11.2,1004.6,803.7,91.0,76.8007
180,65c21d0abf85afd03721ac2f,439.0,177.0,0.0,186.0,11.1,884.9,707.9,91.0,73.2982
182,65c21d0abf85afd03721ac31,362.6,189.0,0.0,164.9,11.6,944.7,755.8,91.0,79.2966
184,65c21d0abf85afd03721ac33,222.36,0.0,96.67,189.29,4.46,967.08,870.32,3.0,11.5763
186,65c21d0abf85afd03721ac35,222.36,0.0,96.67,189.29,4.46,967.08,870.32,28.0,24.8901
188,65c21d0abf85afd03721ac37,222.36,0.0,96.67,189.29,4.46,967.08,870.32,100.0,40.7136
190,65c21d0abf85afd03721ac39,233.81,0.0,94.58,197.89,4.567,947.04,852.16,14.0,22.1391
192,65c21d0abf85afd03721ac3b,233.81,0.0,94.58,197.89,4.567,947.04,852.16,56.0,27.6618
194,65c21d0abf85afd03721ac3d,194.68,0.0,100.52,165.62,7.48,1006.4,905.9,3.0,12.4519
196,65c21d0abf85afd03721ac3f,194.68,0.0,100.52,165.62,7.48,1006.4,905.9,28.0,25.7243
198,65c21d0abf85afd03721ac41,194.68,0.0,100.52,165.62,7.48,1006.4,905.9,100.0,37.342
200,65c21d0abf85afd03721ac43,190.68,0.0,125.4,162.14,7.77,1090.0,804.01,14.0,21.0635
202,65c21d0abf85afd03721ac45,190.68,0.0,125.4,162.14,7.77,1090.0,804.01,56.0,35.3425
204,65c21d0abf85afd03721ac47,212.07,0.0,121.62,180.31,5.69,1057.6,779.32,3.0,12.4726
206,65c21d0abf85afd03721ac49,212.07,0.0,121.62,180.31,5.69,1057.6,779.32,28.0,24.9039
208,65c21d0abf85afd03721ac4b,212.07,0.0,121.62,180.31,5.69,1057.6,779.32,100.0,39.6104
210,65c21d0abf85afd03721ac4d,229.97,0.0,118.31,195.47,4.63,1029.4,758.59,14.0,20.0844
212,65c21d0abf85afd03721ac4f,229.97,0.0,118.31,195.47,4.63,1029.4,758.59,56.0,31.5366
214,65c21d0abf85afd03721ac51,190.34,0.0,125.18,161.85,9.88,1088.1,802.59,3.0,9.44582
216,65c21d0abf85afd03721ac53,190.34,0.0,125.18,161.85,9.88,1088.1,802.59,28.0,28.4685
218,65c21d0abf85afd03721ac55,190.34,0.0,125.18,161.85,9.88,1088.1,802.59,100.0,40.3895
220,65c21d0abf85afd03721ac57,166.09,0.0,163.27,176.46,4.49,1058.6,780.09,14.0,25.483
222,65c21d0abf85afd03721ac59,166.09,0.0,163.27,176.46,4.49,1058.6,780.09,56.0,28.627
224,65c21d0abf85afd03721ac5b,167.95,42.08,163.83,121.75,5.72,1058.7,780.11,3.0,7.74971
226,65c21d0abf85afd03721ac5d,167.95,42.08,163.83,121.75,5.72,1058.7,780.11,28.0,24.242
228,65c21d0abf85afd03721ac5f,167.95,42.08,163.83,121.75,5.72,1058.7,780.11,100.0,39.2312
230,65c21d0abf85afd03721ac61,213.72,98.05,24.51,181.71,6.86,1065.8,785.38,14.0,30.3852
232,65c21d0abf85afd03721ac63,213.72,98.05,24.51,181.71,6.86,1065.8,785.38,56.0,50.773
234,65c21d0abf85afd03721ac65,213.76,98.06,24.52,181.74,6.65,1066.0,785.52,3.0,13.1828
236,65c21d0abf85afd03721ac67,213.76,98.06,24.52,181.74,6.65,1066.0,785.52,28.0,40.2309
238,65c21d0abf85afd03721ac69,213.76,98.06,24.52,181.74,6.65,1066.0,785.52,100.0,49.9732
240,65c21d0abf85afd03721ac6b,229.68,0.0,118.16,195.23,6.13,1028.1,757.63,14.0,22.3183
242,65c21d0abf85afd03721ac6d,229.68,0.0,118.16,195.23,6.13,1028.1,757.63,56.0,31.3505
244,65c21d0abf85afd03721ac6f,238.05,0.0,94.11,186.66,7.0,949.91,847.01,3.0,19.9328
246,65c21d0abf85afd03721ac71,238.05,0.0,94.11,186.66,7.0,949.91,847.01,28.0,30.2335
248,65c21d0abf85afd03721ac73,238.05,0.0,94.11,186.66,7.0,949.91,847.01,100.0,44.2988
250,65c21d0abf85afd03721ac75,250.0,0.0,95.69,187.42,5.53,956.86,861.17,14.0,24.9177
252,65c21d0abf85afd03721ac77,250.0,0.0,95.69,187.42,5.53,956.86,861.17,56.0,38.328
254,65c21d0abf85afd03721ac79,212.52,0.0,100.37,159.32,8.71,1007.8,903.59,3.0,13.5413
256,65c21d0abf85afd03721ac7b,212.52,0.0,100.37,159.32,8.71,1007.8,903.59,28.0,31.6401
258,65c21d0abf85afd03721ac7d,212.52,0.0,100.37,159.32,8.71,1007.8,903.59,100.0,42.9199
260,65c21d0abf85afd03721ac7f,212.57,0.0,100.39,159.35,10.37,1003.8,903.79,14.0,25.3727
262,65c21d0abf85afd03721ac81,212.57,0.0,100.39,159.35,10.37,1003.8,903.79,56.0,44.3954
264,65c21d0abf85afd03721ac83,212.0,0.0,124.78,159.0,7.84,1085.4,799.54,3.0,19.5191
266,65c21d0abf85afd03721ac85,212.0,0.0,124.78,159.0,7.84,1085.4,799.54,28.0,38.5003
268,65c21d0abf85afd03721ac87,212.0,0.0,124.78,159.0,7.84,1085.4,799.54,100.0,47.8152
270,65c21d0abf85afd03721ac89,231.75,0.0,121.62,173.96,6.72,1056.4,778.45,14.0,26.7724
272,65c21d0abf85afd03721ac8b,231.75,0.0,121.62,173.96,6.72,1056.4,778.45,56.0,42.6992
274,65c21d0abf85afd03721ac8d,251.37,0.0,118.27,188.45,5.75,1028.4,757.73,3.0,17.2231
276,65c21d0abf85afd03721ac8f,251.37,0.0,118.27,188.45,5.75,1028.4,757.73,28.0,29.6544
278,65c21d0abf85afd03721ac91,251.37,0.0,118.27,188.45,5.75,1028.4,757.73,100.0,43.5818
280,65c21d0abf85afd03721ac93,251.37,0.0,118.27,188.45,6.35,1028.4,757.73,14.0,24.4281
282,65c21d0abf85afd03721ac95,251.37,0.0,118.27,188.45,6.35,1028.4,757.73,56.0,36.6388
284,65c21d0abf85afd03721ac97,181.38,0.0,167.01,169.59,7.56,1055.6,777.8,3.0,13.624
286,65c21d0abf85afd03721ac99,181.38,0.0,167.01,169.59,7.56,1055.6,777.8,28.0,27.7721
288,65c21d0abf85afd03721ac9b,181.38,0.0,167.01,169.59,7.56,1055.6,777.8,100.0,45.3675
290,65c21d0abf85afd03721ac9d,182.04,45.21,121.97,170.21,8.19,1059.4,780.65,14.0,21.5048
292,65c21d0abf85afd03721ac9f,182.04,45.21,121.97,170.21,8.19,1059.4,780.65,56.0,43.499
294,65c21d0abf85afd03721aca1,168.88,42.22,124.25,158.33,10.83,1080.8,796.15,3.0,7.39808
296,65c21d0abf85afd03721aca3,168.88,42.22,124.25,158.33,10.83,1080.8,796.15,28.0,31.1161
298,65c21d0abf85afd03721aca5,168.88,42.22,124.25,158.33,10.83,1080.8,796.15,100.0,48.153
300,65c21d0abf85afd03721aca7,290.35,0.0,96.18,168.08,9.41,961.18,865.0,14.0,34.6737
302,65c21d0abf85afd03721aca9,290.35,0.0,96.18,168.08,9.41,961.18,865.0,56.0,45.0848
304,65c21d0abf85afd03721acab,277.05,0.0,97.39,160.6,11.83,973.9,875.61,3.0,23.1388
306,65c21d0abf85afd03721acad,277.05,0.0,97.39,160.6,11.83,973.9,875.61,28.0,48.284
308,65c21d0abf85afd03721acaf,277.05,0.0,97.39,160.6,11.83,973.9,875.61,100.0,55.6407
310,65c21d0abf85afd03721acb1,295.71,0.0,95.64,171.54,8.87,955.14,859.2,14.0,35.2322
312,65c21d0abf85afd03721acb3,295.71,0.0,95.64,171.54,8.87,955.14,859.2,56.0,48.7184
314,65c21d0abf85afd03721acb5,251.81,0.0,99.94,146.14,12.35,1006.0,899.76,3.0,21.0221
316,65c21d0abf85afd03721acb7,251.81,0.0,99.94,146.14,12.35,1006.0,899.76,28.0,33.9429
318,65c21d0abf85afd03721acb9,251.81,0.0,99.94,146.14,12.35,1006.0,899.76,100.0,45.3675
320,65c21d0abf85afd03721acbb,249.1,0.0,98.75,158.11,12.8,987.76,889.01,14.0,28.6822
322,65c21d0abf85afd03721acbd,249.1,0.0,98.75,158.11,12.8,987.76,889.01,56.0,42.0305
324,65c21d0abf85afd03721acbf,252.31,0.0,98.75,146.25,14.17,987.76,889.01,3.0,21.7805
326,65c21d0abf85afd03721acc1,252.31,0.0,98.75,146.25,14.17,987.76,889.01,28.0,50.6006
328,65c21d0abf85afd03721acc3,252.31,0.0,98.75,146.25,14.17,987.76,889.01,100.0,60.9497
330,65c21d0abf85afd03721acc5,246.83,0.0,125.08,143.3,11.99,1086.8,800.89,14.0,42.2166
332,65c21d0abf85afd03721acc7,246.83,0.0,125.08,143.3,11.99,1086.8,800.89,56.0,60.3223
334,65c21d0abf85afd03721acc9,275.07,0.0,121.35,159.48,9.9,1053.6,777.5,3.0,23.8007
336,65c21d0abf85afd03721accb,275.07,0.0,121.35,159.48,9.9,1053.6,777.5,28.0,51.3315
338,65c21d0abf85afd03721accd,275.07,0.0,121.35,159.48,9.9,1053.6,777.5,100.0,58.60546
340,65c21d0abf85afd03721accf,297.16,0.0,117.54,174.8,9.52,1022.8,753.45,14.0,36.9904
342,65c21d0abf85afd03721acd1,297.16,0.0,117.54,174.8,9.52,1022.8,753.45,56.0,51.9589
344,65c21d0abf85afd03721acd3,213.74,0.0,174.74,154.79,10.16,1053.5,776.35,3.0,17.5747
346,65c21d0abf85afd03721acd5,213.74,0.0,174.74,154.79,10.16,1053.5,776.35,28.0,40.1482
348,65c21d0abf85afd03721acd7,213.74,0.0,174.74,154.79,10.16,1053.5,776.35,100.0,50.0766
350,65c21d0abf85afd03721acd9,213.5,0.0,174.24,154.61,11.66,1052.3,775.48,14.0,33.7016
352,65c21d0abf85afd03721acdb,213.5,0.0,174.24,154.61,11.66,1052.3,775.48,56.0,51.4349
354,65c21d0abf85afd03721acdd,277.19,97.82,24.46,160.7,11.19,1061.7,782.46,3.0,30.4473
356,65c21d0abf85afd03721acdf,277.19,97.82,24.46,160.7,11.19,1061.7,782.46,28.0,63.1422
358,65c21d0abf85afd03721ace1,277.19,97.82,24.46,160.7,11.19,1061.7,782.46,100.0,66.9481
360,65c21d0abf85afd03721ace3,218.23,54.64,123.78,140.75,11.91,1075.7,792.67,14.0,35.9562
362,65c21d0abf85afd03721ace5,218.23,54.64,123.78,140.75,11.91,1075.7,792.67,56.0,61.9908
364,65c21d0abf85afd03721ace7,214.9,53.8,121.89,155.63,9.61,1014.3,780.58,3.0,18.016
366,65c21d0abf85afd03721ace9,214.9,53.8,121.89,155.63,9.61,1014.3,780.58,28.0,52.2002
368,65c21d0abf85afd03721aceb,214.9,53.8,121.89,155.63,9.61,1014.3,780.58,100.0,56.6336
370,65c21d0abf85afd03721aced,218.85,0.0,124.13,158.49,11.33,1078.7,794.91,14.0,26.0484
372,65c21d0abf85afd03721acef,218.85,0.0,124.13,158.49,11.33,1078.7,794.91,56.0,37.2662
374,65c21d0abf85afd03721acf1,376.0,0.0,0.0,214.6,0.0,1003.5,762.36,3.0,16.2785
376,65c21d0abf85afd03721acf3,376.0,0.0,0.0,214.6,0.0,1003.5,762.36,28.0,31.971
378,65c21d0abf85afd03721acf5,376.0,0.0,0.0,214.6,0.0,1003.5,762.36,100.0,43.0578
380,65c21d0abf85afd03721acf7,475.0,0.0,59.0,142.0,1.9,1098.0,641.0,28.0,57.2265
382,65c21d0abf85afd03721acf9,505.0,0.0,60.0,195.0,0.0,1030.0,630.0,28.0,64.0178
384,65c21d0abf85afd03721acfb,516.0,0.0,0.0,162.0,8.2,801.0,802.0,28.0,41.36856
386,65c21d0abf85afd03721acfd,528.0,0.0,0.0,185.0,6.86,920.0,720.0,28.0,56.8335
388,65c21d0abf85afd03721acff,385.0,0.0,136.0,158.0,20.0,903.0,768.0,28.0,55.5511
390,65c21d0abf85afd03721ad01,450.1,50.0,0.0,200.0,3.0,1124.4,613.2,28.0,39.376
392,65c21d0abf85afd03721ad03,333.0,17.5,163.0,167.0,17.9,996.0,652.0,28.0,47.2774
394,65c21d0abf85afd03721ad05,405.0,0.0,0.0,175.0,0.0,1120.0,695.0,28.0,52.3036
396,65c21d0abf85afd03721ad07,516.0,0.0,0.0,162.0,8.26,801.0,802.0,28.0,41.36856
398,65c21d0abf85afd03721ad09,160.0,128.0,122.0,182.0,6.4,824.0,879.0,28.0,39.3967
400,65c21d0abf85afd03721ad0b,250.0,180.0,95.0,159.0,9.45,860.0,800.0,28.0,67.8651
402,65c21d0abf85afd03721ad0d,285.0,190.0,0.0,163.0,7.6,1031.0,685.0,28.0,53.5792
404,65c21d0abf85afd03721ad0f,275.0,180.0,120.0,162.0,10.35,830.0,765.0,28.0,76.2354
406,65c21d0abf85afd03721ad11,165.0,0.02,143.57,163.81,0.0,1005.6,900.9,3.0,14.3963
408,65c21d0abf85afd03721ad13,178.03,129.8,118.6,179.94,3.57,1007.3,746.8,3.0,20.7256
410,65c21d0abf85afd03721ad15,172.38,13.61,172.37,156.76,4.14,1006.3,856.4,3.0,21.291
412,65c21d0abf85afd03721ad17,167.0,75.4,167.0,164.03,7.91,1007.3,770.1,3.0,15.5201
414,65c21d0abf85afd03721ad19,190.34,0.0,125.18,166.61,9.88,1079.0,798.9,3.0,12.5485
416,65c21d0abf85afd03721ad1b,213.5,0.0,174.24,159.21,11.66,1043.6,771.9,3.0,15.6097
418,65c21d0abf85afd03721ad1d,251.37,0.0,118.27,192.94,5.75,1043.6,754.3,3.0,11.9831
420,65c21d0abf85afd03721ad1f,165.0,128.5,132.1,175.06,8.08,1005.8,746.6,14.0,33.088
422,65c21d0abf85afd03721ad21,167.35,129.9,128.62,175.46,7.79,1006.3,746.6,14.0,31.8124
424,65c21d0abf85afd03721ad23,173.54,50.05,173.53,164.77,6.47,1006.2,793.5,14.0,33.0052
426,65c21d0abf85afd03721ad25,173.81,93.37,159.9,172.34,9.73,1007.2,746.6,14.0,29.5509
428,65c21d0abf85afd03721ad27,250.0,0.0,95.69,191.84,5.33,948.9,857.2,14.0,24.6557
430,65c21d0abf85afd03721ad29,194.68,0.0,100.52,170.17,7.48,998.0,901.8,14.0,24.2833
432,65c21d0abf85afd03721ad2b,165.0,0.02,143.57,163.81,0.0,1005.6,900.9,28.0,26.2001
434,65c21d0abf85afd03721ad2d,178.03,129.8,118.6,179.94,3.57,1007.3,746.8,28.0,39.1622
436,65c21d0abf85afd03721ad2f,172.38,13.61,172.37,156.76,4.14,1006.3,856.4,28.0,33.6878
438,65c21d0abf85afd03721ad31,167.0,75.4,167.0,164.03,7.91,1007.3,770.1,28.0,41.4099
440,65c21d0abf85afd03721ad33,190.34,0.0,125.18,166.61,9.88,1079.0,798.9,28.0,24.8487
442,65c21d0abf85afd03721ad35,213.5,0.0,174.24,159.21,11.66,1043.6,771.9,28.0,44.6367
444,65c21d0abf85afd03721ad37,251.37,0.0,118.27,192.94,5.75,1043.6,754.3,28.0,33.2741
446,65c21d0abf85afd03721ad39,165.0,128.5,132.1,175.06,8.08,1005.8,746.6,56.0,53.724
448,65c21d0abf85afd03721ad3b,167.35,129.9,128.62,175.46,7.79,1006.3,746.6,56.0,51.7245
450,65c21d0abf85afd03721ad3d,173.54,50.05,173.53,164.77,6.47,1006.2,793.5,56.0,53.7722
452,65c21d0abf85afd03721ad3f,173.81,93.37,159.9,172.34,9.73,1007.2,746.6,56.0,48.9873
454,65c21d0abf85afd03721ad41,250.0,0.0,95.69,191.84,5.33,948.9,857.2,56.0,39.64487
456,65c21d0abf85afd03721ad43,194.68,0.0,100.52,170.17,7.48,998.0,901.8,56.0,43.3887
458,65c21d0abf85afd03721ad45,165.0,0.02,143.57,163.81,0.0,1005.6,900.9,100.0,37.9557
460,65c21d0abf85afd03721ad47,178.03,129.8,118.6,179.94,3.57,1007.3,746.8,100.0,49.9939
462,65c21d0abf85afd03721ad49,172.38,13.61,172.37,156.76,4.14,1006.3,856.4,100.0,37.6799
464,65c21d0abf85afd03721ad4b,167.0,75.4,167.0,164.03,7.91,1007.3,770.1,100.0,56.8128
466,65c21d0abf85afd03721ad4d,190.34,0.0,125.18,166.61,9.88,1079.0,798.9,100.0,33.5637
468,65c21d0abf85afd03721ad4f,213.5,0.0,174.24,159.21,11.66,1043.6,771.9,100.0,52.9587
470,65c21d0abf85afd03721ad51,251.37,0.0,118.27,192.94,5.75,1043.6,754.3,100.0,40.1482
472,65c21d0abf85afd03721ad53,446.0,24.0,79.0,162.0,11.64,967.0,712.0,28.0,44.4229
474,65c21d0abf85afd03721ad55,446.0,24.0,79.0,162.0,10.3,967.0,712.0,28.0,53.3861
476,65c21d0abf85afd03721ad57,446.0,24.0,79.0,162.0,11.64,967.0,712.0,3.0,25.0211
478,65c21d0abf85afd03721ad59,446.0,24.0,79.0,162.0,11.61,967.0,712.0,7.0,52.0072
480,65c21d0abf85afd03721ad5b,446.0,24.0,79.0,162.0,11.64,967.0,712.0,7.0,39.3001
482,65c21d0abf85afd03721ad5d,446.0,24.0,79.0,162.0,11.64,967.0,712.0,56.0,56.144
484,65c21d0abf85afd03721ad5f,446.0,24.0,79.0,162.0,10.3,967.0,712.0,56.0,54.7651
486,65c21d0abf85afd03721ad61,387.0,20.0,94.0,157.0,13.93,938.0,845.0,28.0,46.6844
488,65c21d0abf85afd03721ad63,387.0,20.0,94.0,157.0,14.32,938.0,845.0,3.0,22.7527
490,65c21d0abf85afd03721ad65,387.0,20.0,94.0,157.0,11.61,938.0,845.0,3.0,34.7703
492,65c21d0abf85afd03721ad67,387.0,20.0,94.0,157.0,13.93,938.0,845.0,7.0,45.8984
494,65c21d0abf85afd03721ad69,387.0,20.0,94.0,157.0,14.32,938.0,845.0,56.0,56.3371
496,65c21d0abf85afd03721ad6b,387.0,20.0,94.0,157.0,11.61,938.0,845.0,56.0,61.4599
498,65c21d0abf85afd03721ad6d,355.0,19.0,97.0,145.0,12.25,967.0,871.0,28.0,55.4546
500,65c21d0abf85afd03721ad6f,491.0,26.0,123.0,201.0,3.93,822.0,699.0,28.0,57.916
502,65c21d0abf85afd03721ad71,491.0,26.0,123.0,210.0,3.93,882.0,699.0,7.0,33.4888
504,65c21d0abf85afd03721ad73,491.0,26.0,123.0,201.0,3.93,822.0,699.0,3.0,29.549
506,65c21d0abf85afd03721ad75,491.0,26.0,123.0,201.0,3.93,822.0,699.0,56.0,61.8558
508,65c21d0abf85afd03721ad77,424.0,22.0,132.0,178.0,8.48,882.0,750.0,3.0,32.0114
510,65c21d0abf85afd03721ad79,424.0,22.0,132.0,178.0,8.48,822.0,750.0,7.0,39.0046
512,65c21d0abf85afd03721ad7b,424.0,22.0,132.0,168.0,8.92,822.0,750.0,3.0,32.1099
514,65c21d0abf85afd03721ad7d,424.0,22.0,132.0,168.0,8.92,822.0,750.0,56.0,74.3649
516,65c21d0abf85afd03721ad7f,202.0,11.0,141.0,206.0,1.72,942.0,801.0,3.0,9.84966
518,65c21d0abf85afd03721ad81,202.0,11.0,141.0,206.0,1.72,942.0,801.0,56.0,23.2452
520,65c21d0abf85afd03721ad83,284.0,15.0,141.0,179.0,5.46,842.0,801.0,3.0,13.3955
522,65c21d0abf85afd03721ad85,284.0,15.0,141.0,179.0,5.46,842.0,801.0,56.0,44.5205
524,65c21d0abf85afd03721ad87,359.0,19.0,141.0,154.0,10.91,942.0,801.0,28.0,59.4949
526,65c21d0abf85afd03721ad89,359.0,19.0,141.0,154.0,10.91,942.0,801.0,3.0,23.6392
528,65c21d0abf85afd03721ad8b,359.0,19.0,141.0,154.0,10.91,942.0,801.0,7.0,38.6107
530,65c21d0abf85afd03721ad8d,359.0,19.0,141.0,154.0,10.91,942.0,801.0,56.0,66.7807
532,65c21d0abf85afd03721ad8f,289.0,0.0,0.0,192.0,0.0,913.2,895.3,90.0,32.0682
534,65c21d0abf85afd03721ad91,393.0,0.0,0.0,192.0,0.0,940.6,785.6,3.0,19.1991
536,65c21d0abf85afd03721ad93,393.0,0.0,0.0,192.0,0.0,940.6,785.6,28.0,39.6049
538,65c21d0abf85afd03721ad95,480.0,0.0,0.0,192.0,0.0,936.2,712.2,7.0,34.5696
540,65c21d0abf85afd03721ad97,480.0,0.0,0.0,192.0,0.0,936.2,712.2,3.0,24.4047
542,65c21d0abf85afd03721ad99,255.0,0.0,0.0,192.0,0.0,889.8,945.0,90.0,21.8591
544,65c21d0abf85afd03721ad9b,289.0,0.0,0.0,192.0,0.0,913.2,895.3,7.0,14.5969
546,65c21d0abf85afd03721ad9d,333.0,0.0,0.0,192.0,0.0,931.2,842.6,28.0,31.9669
548,65c21d0abf85afd03721ad9f,289.0,0.0,0.0,192.0,0.0,913.2,895.3,28.0,25.5734
550,65c21d0abf85afd03721ada1,393.0,0.0,0.0,192.0,0.0,940.6,785.6,7.0,27.7424
552,65c21d0abf85afd03721ada3,158.8,238.2,0.0,185.7,0.0,1040.6,734.3,7.0,9.6175
554,65c21d0abf85afd03721ada5,238.2,158.8,0.0,185.7,0.0,1040.6,734.3,7.0,15.6911
556,65c21d0abf85afd03721ada7,193.5,290.2,0.0,185.7,0.0,998.2,704.3,28.0,32.6267
558,65c21d0abf85afd03721ada9,272.8,181.9,0.0,185.7,0.0,1012.4,714.3,7.0,19.7652
560,65c21d0abf85afd03721adab,220.8,147.2,0.0,185.7,0.0,1055.0,744.3,28.0,25.745
562,65c21d0abf85afd03721adad,382.5,0.0,0.0,185.7,0.0,1047.8,739.3,7.0,24.0655
564,65c21d0abf85afd03721adaf,158.8,238.2,0.0,185.7,0.0,1040.6,734.3,28.0,21.0662
566,65c21d0abf85afd03721adb1,255.5,170.3,0.0,185.7,0.0,1026.6,724.3,28.0,32.0517
568,65c21d0abf85afd03721adb3,397.0,0.0,0.0,185.7,0.0,1040.6,734.3,7.0,25.4479
570,65c21d0abf85afd03721adb5,295.8,0.0,0.0,185.7,0.0,1091.4,769.3,28.0,25.2169
572,65c21d0abf85afd03721adb7,220.8,147.2,0.0,185.7,0.0,1055.0,744.3,7.0,13.089
574,65c21d0abf85afd03721adb9,135.7,203.5,0.0,185.7,0.0,1076.2,759.3,7.0,7.50701
576,65c21d0abf85afd03721adbb,339.2,0.0,0.0,185.7,0.0,1069.2,754.3,7.0,21.1793
578,65c21d0abf85afd03721adbd,193.5,290.2,0.0,185.7,0.0,998.2,704.3,7.0,17.2004
580,65c21d0abf85afd03721adbf,290.2,193.5,0.0,185.7,0.0,998.2,704.3,7.0,21.8591
582,65c21d0abf85afd03721adc1,170.3,155.5,0.0,185.7,0.0,1026.6,724.3,28.0,25.7264
584,65c21d0abf85afd03721adc3,228.0,342.1,0.0,185.7,0.0,955.8,674.3,7.0,21.9171
586,65c21d0abf85afd03721adc5,381.4,0.0,0.0,185.7,0.0,1104.6,784.3,7.0,14.541
588,65c21d0abf85afd03721adc7,186.2,124.1,0.0,185.7,0.0,1083.4,764.3,7.0,7.99585
590,65c21d0abf85afd03721adc9,238.1,0.0,0.0,185.7,0.0,1118.8,789.3,7.0,10.3359
592,65c21d0abf85afd03721adcb,382.5,0.0,0.0,185.7,0.0,1047.8,739.3,28.0,37.4379
594,65c21d0abf85afd03721adcd,316.1,210.7,0.0,185.7,0.0,977.0,689.3,7.0,24.4378
596,65c21d0abf85afd03721adcf,170.3,155.5,0.0,185.7,0.0,1026.6,724.3,7.0,10.7303
598,65c21d0abf85afd03721add1,339.0,0.0,0.0,197.0,0.0,968.0,781.0,3.0,13.2241
600,65c21d0abf85afd03721add3,339.0,0.0,0.0,197.0,0.0,968.0,781.0,14.0,27.0412
602,65c21d0abf85afd03721add5,339.0,0.0,0.0,197.0,0.0,968.0,781.0,90.0,35.1702
604,65c21d0abf85afd03721add7,339.0,0.0,0.0,197.0,0.0,968.0,781.0,365.0,38.8933
606,65c21d0abf85afd03721add9,236.0,0.0,0.0,194.0,0.0,968.0,885.0,14.0,12.838
608,65c21d0abf85afd03721addb,236.0,0.0,0.0,194.0,0.0,968.0,885.0,90.0,21.946
610,65c21d0abf85afd03721addd,236.0,0.0,0.0,193.0,0.0,968.0,885.0,365.0,25.0831
612,65c21d0abf85afd03721addf,277.0,0.0,0.0,191.0,0.0,968.0,856.0,28.0,25.9657
614,65c21d0abf85afd03721ade1,277.0,0.0,0.0,191.0,0.0,968.0,856.0,90.0,31.2539
616,65c21d0abf85afd03721ade3,277.0,0.0,0.0,191.0,0.0,968.0,856.0,360.0,33.7016
618,65c21d0abf85afd03721ade5,254.0,0.0,0.0,198.0,0.0,968.0,863.0,90.0,26.9447
620,65c21d0abf85afd03721ade7,254.0,0.0,0.0,198.0,0.0,968.0,863.0,365.0,29.7854
622,65c21d0abf85afd03721ade9,307.0,0.0,0.0,193.0,0.0,968.0,812.0,365.0,36.1492
624,65c21d0abf85afd03721adeb,307.0,0.0,0.0,193.0,0.0,968.0,812.0,28.0,27.5308
626,65c21d0abf85afd03721aded,236.0,0.0,0.0,193.0,0.0,968.0,885.0,7.0,9.99051
628,65c21d0abf85afd03721adef,200.0,0.0,0.0,180.0,0.0,1125.0,845.0,28.0,12.2451
630,65c21d0abf85afd03721adf1,225.0,0.0,0.0,181.0,0.0,1113.0,833.0,28.0,17.3403
632,65c21d0abf85afd03721adf3,325.0,0.0,0.0,184.0,0.0,1063.0,783.0,28.0,30.5714
634,65c21d0abf85afd03721adf5,275.0,0.0,0.0,183.0,0.0,1088.0,808.0,28.0,24.4971
636,65c21d0abf85afd03721adf7,300.0,0.0,0.0,184.0,0.0,1075.0,795.0,28.0,26.8482
638,65c21d0abf85afd03721adf9,375.0,0.0,0.0,186.0,0.0,1038.0,758.0,28.0,38.2108
640,65c21d0abf85afd03721adfb,400.0,0.0,0.0,187.0,0.0,1025.0,745.0,7.0,30.1439
642,65c21d0abf85afd03721adfd,250.0,0.0,0.0,182.0,0.0,1100.0,820.0,28.0,20.8704
644,65c21d0abf85afd03721adff,350.0,0.0,0.0,186.0,0.0,1050.0,770.0,28.0,34.2945
646,65c21d0abf85afd03721ae01,250.2,166.8,0.0,203.5,0.0,977.6,694.1,90.0,47.7145
648,65c21d0abf85afd03721ae03,141.3,212.0,0.0,203.5,0.0,971.8,748.5,28.0,29.8922
650,65c21d0abf85afd03721ae05,122.6,183.9,0.0,203.5,0.0,958.2,800.1,90.0,33.1921
652,65c21d0abf85afd03721ae07,102.0,153.0,0.0,192.0,0.0,887.0,942.0,3.0,4.56502
654,65c21d0abf85afd03721ae09,122.6,183.9,0.0,203.5,0.0,958.2,800.1,28.0,24.2909
656,65c21d0abf85afd03721ae0b,200.0,133.0,0.0,192.0,0.0,965.4,806.2,3.0,11.4143
658,65c21d0abf85afd03721ae0d,305.3,203.5,0.0,203.5,0.0,965.4,631.0,7.0,25.894
660,65c21d0abf85afd03721ae0f,116.0,173.0,0.0,192.0,0.0,909.8,891.9,90.0,31.0237
662,65c21d0abf85afd03721ae11,157.0,236.0,0.0,192.0,0.0,935.4,781.2,28.0,33.6644
664,65c21d0abf85afd03721ae13,250.2,166.8,0.0,203.5,0.0,977.6,694.1,7.0,19.3501
666,65c21d0abf85afd03721ae15,192.0,288.0,0.0,192.0,0.0,929.8,716.1,3.0,12.7884
668,65c21d0abf85afd03721ae17,153.0,102.0,0.0,192.0,0.0,888.0,943.1,3.0,4.78221
670,65c21d0abf85afd03721ae19,305.3,203.5,0.0,203.5,0.0,965.4,631.0,28.0,43.377
672,65c21d0abf85afd03721ae1b,173.0,116.0,0.0,192.0,0.0,946.8,856.8,3.0,6.94095
674,65c21d0abf85afd03721ae1d,236.0,157.0,0.0,192.0,0.0,972.6,749.1,3.0,13.5654
676,65c21d0abf85afd03721ae1f,166.8,250.2,0.0,203.5,0.0,975.6,692.6,7.0,15.7483
678,65c21d0abf85afd03721ae21,288.0,192.0,0.0,192.0,0.0,932.0,717.8,28.0,38.8044
680,65c21d0abf85afd03721ae23,102.0,153.0,0.0,192.0,0.0,887.0,942.0,28.0,17.2755
682,65c21d0abf85afd03721ae25,183.9,122.6,0.0,203.5,0.0,959.2,800.0,28.0,24.0462
684,65c21d0abf85afd03721ae27,192.0,288.0,0.0,192.0,0.0,929.8,716.1,90.0,50.7323
686,65c21d0abf85afd03721ae29,305.3,203.5,0.0,203.5,0.0,965.4,631.0,3.0,14.1439
688,65c21d0abf85afd03721ae2b,108.3,162.4,0.0,203.5,0.0,938.2,849.0,3.0,2.33181
690,65c21d0abf85afd03721ae2d,288.0,192.0,0.0,192.0,0.0,932.0,717.8,7.0,23.5235
692,65c21d0abf85afd03721ae2f,212.0,141.3,0.0,203.5,0.0,973.4,750.0,90.0,39.7
694,65c21d0abf85afd03721ae31,236.0,157.0,0.0,192.0,0.0,972.6,749.1,28.0,32.8846
696,65c21d0abf85afd03721ae33,183.9,122.6,0.0,203.5,0.0,959.2,800.0,7.0,10.7875
698,65c21d0abf85afd03721ae35,203.5,305.3,0.0,203.5,0.0,963.4,630.0,28.0,41.6843
700,65c21d0abf85afd03721ae37,133.0,200.0,0.0,192.0,0.0,927.4,839.2,3.0,6.88373
702,65c21d0abf85afd03721ae39,200.0,133.0,0.0,192.0,0.0,965.4,806.2,7.0,17.1659
704,65c21d0abf85afd03721ae3b,250.2,166.8,0.0,203.5,0.0,977.6,694.1,3.0,9.73126
706,65c21d0abf85afd03721ae3d,153.0,102.0,0.0,192.0,0.0,888.0,943.1,90.0,26.3228
708,65c21d0abf85afd03721ae3f,116.0,173.0,0.0,192.0,0.0,909.8,891.9,3.0,6.28044
710,65c21d0abf85afd03721ae41,250.2,166.8,0.0,203.5,0.0,977.6,694.1,28.0,36.9642
712,65c21d0abf85afd03721ae43,192.0,288.0,0.0,192.0,0.0,929.8,716.1,7.0,21.4806
714,65c21d0abf85afd03721ae45,153.0,102.0,0.0,192.0,0.0,888.0,943.1,7.0,8.37438
716,65c21d0abf85afd03721ae47,116.0,173.0,0.0,192.0,0.0,909.8,891.9,7.0,10.0898
718,65c21d0abf85afd03721ae49,122.6,183.9,0.0,203.5,0.0,958.2,800.1,7.0,10.3546
720,65c21d0abf85afd03721ae4b,203.5,305.3,0.0,203.5,0.0,963.4,630.0,90.0,51.8638
722,65c21d0abf85afd03721ae4d,310.0,0.0,0.0,192.0,0.0,1012.0,830.0,7.0,17.2438
724,65c21d0abf85afd03721ae4f,310.0,0.0,0.0,192.0,0.0,1012.0,830.0,90.0,35.7631
726,65c21d0abf85afd03721ae51,331.0,0.0,0.0,192.0,0.0,1025.0,821.0,3.0,14.3066
728,65c21d0abf85afd03721ae53,331.0,0.0,0.0,192.0,0.0,1025.0,821.0,28.0,31.7435
730,65c21d0abf85afd03721ae55,331.0,0.0,0.0,192.0,0.0,1025.0,821.0,120.0,39.3829
732,65c21d0abf85afd03721ae57,349.0,0.0,0.0,192.0,0.0,1056.0,809.0,7.0,9.01145
734,65c21d0abf85afd03721ae59,349.0,0.0,0.0,192.0,0.0,1056.0,809.0,90.0,40.6584
736,65c21d0abf85afd03721ae5b,238.0,0.0,0.0,186.0,0.0,1119.0,789.0,7.0,12.052
738,65c21d0abf85afd03721ae5d,296.0,0.0,0.0,186.0,0.0,1090.0,769.0,7.0,18.9123
740,65c21d0abf85afd03721ae5f,297.0,0.0,0.0,186.0,0.0,1040.0,734.0,7.0,30.9575
742,65c21d0abf85afd03721ae61,480.0,0.0,0.0,192.0,0.0,936.0,721.0,90.0,54.2756
744,65c21d0abf85afd03721ae63,281.0,0.0,0.0,186.0,0.0,1104.0,774.0,7.0,14.4997
746,65c21d0abf85afd03721ae65,500.0,0.0,0.0,200.0,0.0,1125.0,613.0,1.0,12.6381
748,65c21d0abf85afd03721ae67,500.0,0.0,0.0,200.0,0.0,1125.0,613.0,7.0,33.2121
750,65c21d0abf85afd03721ae69,500.0,0.0,0.0,200.0,0.0,1125.0,613.0,28.0,44.092
752,65c21d0abf85afd03721ae6b,540.0,0.0,0.0,173.0,0.0,1125.0,613.0,14.0,59.7638
754,65c21d0abf85afd03721ae6d,540.0,0.0,0.0,173.0,0.0,1125.0,613.0,90.0,69.6578
756,65c21d0abf85afd03721ae6f,540.0,0.0,0.0,173.0,0.0,1125.0,613.0,270.0,74.1669
758,65c21d0abf85afd03721ae71,350.0,0.0,0.0,203.0,0.0,974.0,775.0,14.0,22.5321
760,65c21d0abf85afd03721ae73,350.0,0.0,0.0,203.0,0.0,974.0,775.0,56.0,29.9784
762,65c21d0abf85afd03721ae75,350.0,0.0,0.0,203.0,0.0,974.0,775.0,180.0,32.7225
764,65c21d0abf85afd03721ae77,385.0,0.0,0.0,186.0,0.0,966.0,763.0,3.0,14.6996
766,65c21d0abf85afd03721ae79,385.0,0.0,0.0,186.0,0.0,966.0,763.0,14.0,27.9238
768,65c21d0abf85afd03721ae7b,331.0,0.0,0.0,192.0,0.0,978.0,825.0,180.0,38.9968
770,65c21d0abf85afd03721ae7d,349.0,0.0,0.0,192.0,0.0,1047.0,806.0,3.0,14.9892
772,65c21d0abf85afd03721ae7f,382.0,0.0,0.0,186.0,0.0,1047.0,739.0,7.0,24.0007
774,65c21d0abf85afd03721ae81,382.0,0.0,0.0,186.0,0.0,1111.0,784.0,7.0,11.466
776,65c21d0abf85afd03721ae83,339.0,0.0,0.0,185.0,0.0,1069.0,754.0,7.0,21.16
778,65c21d0abf85afd03721ae85,295.0,0.0,0.0,185.0,0.0,1069.0,769.0,7.0,14.7962
780,65c21d0abf85afd03721ae87,238.0,0.0,0.0,185.0,0.0,1118.0,789.0,28.0,17.5403
782,65c21d0abf85afd03721ae89,296.0,0.0,0.0,192.0,0.0,1085.0,765.0,28.0,21.6495
784,65c21d0abf85afd03721ae8b,331.0,0.0,0.0,192.0,0.0,879.0,825.0,3.0,13.5206
786,65c21d0abf85afd03721ae8d,331.0,0.0,0.0,192.0,0.0,978.0,825.0,28.0,31.447
788,65c21d0abf85afd03721ae8f,349.0,0.0,0.0,192.0,0.0,1047.0,806.0,7.0,18.1263
790,65c21d0abf85afd03721ae91,349.0,0.0,0.0,192.0,0.0,1047.0,806.0,90.0,39.4863
792,65c21d0abf85afd03721ae93,349.0,0.0,0.0,192.0,0.0,1047.0,806.0,360.0,42.127
794,65c21d0abf85afd03721ae95,302.0,0.0,0.0,203.0,0.0,974.0,817.0,180.0,26.7448
796,65c21d0abf85afd03721ae97,500.0,0.0,0.0,200.0,0.0,1125.0,613.0,90.0,47.2222
798,65c21d0abf85afd03721ae99,500.0,0.0,0.0,200.0,0.0,1125.0,613.0,270.0,55.15808
800,65c21d0abf85afd03721ae9b,252.0,0.0,0.0,185.0,0.0,1111.0,784.0,7.0,13.7137
802,65c21d0abf85afd03721ae9d,339.0,0.0,0.0,185.0,0.0,1060.0,754.0,28.0,31.6469
804,65c21d0abf85afd03721ae9f,393.0,0.0,0.0,192.0,0.0,940.0,758.0,28.0,39.5828
806,65c21d0abf85afd03721aea1,382.0,0.0,0.0,185.0,0.0,1047.0,739.0,7.0,24.0007
808,65c21d0abf85afd03721aea3,252.0,0.0,0.0,186.0,0.0,1111.0,784.0,7.0,11.466
810,65c21d0abf85afd03721aea5,310.0,0.0,0.0,192.0,0.0,970.0,850.0,7.0,14.9892
812,65c21d0abf85afd03721aea7,310.0,0.0,0.0,192.0,0.0,970.0,850.0,90.0,34.6806
814,65c21d0abf85afd03721aea9,310.0,0.0,0.0,192.0,0.0,970.0,850.0,360.0,38.1142
816,65c21d0abf85afd03721aeab,525.0,0.0,0.0,189.0,0.0,1125.0,613.0,7.0,42.4235
818,65c21d0abf85afd03721aead,525.0,0.0,0.0,189.0,0.0,1125.0,613.0,28.0,55.9441
820,65c21d0abf85afd03721aeaf,525.0,0.0,0.0,189.0,0.0,1125.0,613.0,270.0,67.1136
822,65c21d0abf85afd03721aeb1,322.0,0.0,0.0,203.0,0.0,974.0,800.0,28.0,25.1797
824,65c21d0abf85afd03721aeb3,302.0,0.0,0.0,203.0,0.0,974.0,817.0,28.0,21.753
826,65c21d0abf85afd03721aeb5,480.0,0.0,0.0,192.0,0.0,936.0,721.0,3.0,24.3937
828,65c21d0abf85afd03721aeb7,522.0,0.0,0.0,146.0,0.0,896.0,896.0,28.0,74.9874
830,65c21d0abf85afd03721aeb9,162.0,190.0,148.0,179.0,19.0,838.0,741.0,28.0,33.7567
832,65c21d0abf85afd03721aebb,147.0,115.0,89.0,202.0,9.0,860.0,829.0,28.0,19.9879
834,65c21d0abf85afd03721aebd,310.0,143.0,111.0,168.0,22.0,914.0,651.0,28.0,33.6878
836,65c21d0abf85afd03721aebf,304.0,140.0,0.0,214.0,6.0,895.0,722.0,28.0,33.4189
838,65c21d0abf85afd03721aec1,159.0,149.0,116.0,175.0,15.0,953.0,720.0,28.0,27.6756
840,65c21d0abf85afd03721aec3,310.0,143.0,0.0,168.0,10.0,914.0,804.0,28.0,45.2986
842,65c21d0abf85afd03721aec5,151.0,0.0,184.0,167.0,12.0,991.0,772.0,28.0,15.5684
844,65c21d0abf85afd03721aec7,298.0,137.0,107.0,201.0,6.0,878.0,655.0,28.0,53.524
846,65c21d0abf85afd03721aec9,366.0,187.0,0.0,191.0,7.0,824.0,757.0,28.0,65.907
848,65c21d0abf85afd03721aecb,252.0,97.0,76.0,194.0,8.0,835.0,821.0,28.0,33.3982
850,65c21d0abf85afd03721aecd,156.0,243.0,0.0,180.0,11.0,1022.0,698.0,28.0,37.3627
852,65c21d0abf85afd03721aecf,298.0,0.0,107.0,186.0,6.0,879.0,815.0,28.0,42.6372
854,65c21d0abf85afd03721aed1,287.0,121.0,94.0,188.0,9.0,904.0,696.0,28.0,41.9408
856,65c21d0abf85afd03721aed3,356.0,0.0,142.0,193.0,11.0,801.0,778.0,28.0,40.8652
858,65c21d0abf85afd03721aed5,322.0,149.0,0.0,186.0,8.0,951.0,709.0,28.0,52.4209
860,65c21d0abf85afd03721aed7,314.0,0.0,113.0,170.0,10.0,925.0,783.0,28.0,38.459
862,65c21d0abf85afd03721aed9,140.0,164.0,128.0,237.0,6.0,869.0,656.0,28.0,35.2253
864,65c21d0abf85afd03721aedb,298.0,0.0,107.0,210.0,11.0,880.0,744.0,28.0,31.8745
866,65c21d0abf85afd03721aedd,160.0,250.0,0.0,168.0,12.0,1049.0,688.0,28.0,39.4518
868,65c21d0abf85afd03721aedf,276.0,116.0,90.0,180.0,9.0,870.0,768.0,28.0,44.2781
870,65c21d0abf85afd03721aee1,149.0,139.0,109.0,193.0,6.0,892.0,780.0,28.0,23.6904
872,65c21d0abf85afd03721aee3,261.0,100.0,78.0,201.0,9.0,864.0,761.0,28.0,32.3985
874,65c21d0abf85afd03721aee5,313.0,0.0,113.0,178.0,8.0,1002.0,689.0,28.0,36.8042
876,65c21d0abf85afd03721aee7,146.0,230.0,0.0,202.0,3.0,827.0,872.0,28.0,33.0604
878,65c21d0abf85afd03721aee9,133.0,210.0,0.0,196.0,3.0,949.0,795.0,28.0,31.02642
880,65c21d0abf85afd03721aeeb,152.0,0.0,112.0,184.0,8.0,992.0,816.0,28.0,12.1761
882,65c21d0abf85afd03721aeed,140.0,133.0,103.0,200.0,7.0,916.0,753.0,28.0,36.4388
884,65c21d0abf85afd03721aeef,300.0,0.0,120.0,212.0,10.0,878.0,728.0,28.0,23.8352
886,65c21d0abf85afd03721aef1,148.0,0.0,137.0,158.0,16.0,1002.0,830.0,28.0,17.954
888,65c21d0abf85afd03721aef3,153.0,145.0,0.0,178.0,8.0,1000.0,822.0,28.0,19.0089
890,65c21d0abf85afd03721aef5,158.0,0.0,195.0,220.0,11.0,898.0,713.0,28.0,8.53571
892,65c21d0abf85afd03721aef7,273.0,0.0,90.0,199.0,11.0,931.0,762.0,28.0,32.2399
894,65c21d0abf85afd03721aef9,143.0,169.0,143.0,191.0,8.0,967.0,643.0,28.0,29.7233
896,65c21d0abf85afd03721aefb,313.0,161.0,0.0,178.0,10.0,917.0,759.0,28.0,52.4415
898,65c21d0abf85afd03721aefd,336.0,0.0,0.0,182.0,3.0,986.0,817.0,28.0,44.8642
900,65c21d0abf85afd03721aeff,150.0,237.0,0.0,174.0,12.0,1069.0,675.0,28.0,37.4317
902,65c21d0abf85afd03721af01,331.0,170.0,0.0,195.0,8.0,811.0,802.0,28.0,56.6129
904,65c21d0abf85afd03721af03,155.0,183.0,0.0,193.0,9.0,877.0,868.0,28.0,23.7869
906,65c21d0abf85afd03721af05,266.0,112.0,87.0,178.0,10.0,910.0,745.0,28.0,39.4173
908,65c21d0abf85afd03721af07,313.0,145.0,0.0,127.0,8.0,1000.0,822.0,28.0,44.5195
910,65c21d0abf85afd03721af09,144.0,136.0,106.0,178.0,7.0,941.0,774.0,28.0,26.1449
912,65c21d0abf85afd03721af0b,277.0,117.0,91.0,191.0,7.0,946.0,666.0,28.0,43.5749
914,65c21d0abf85afd03721af0d,313.0,145.0,0.0,178.0,8.0,1002.0,689.0,28.0,41.0514
916,65c21d0abf85afd03721af0f,289.0,134.0,0.0,195.0,6.0,924.0,760.0,28.0,46.2432
918,65c21d0abf85afd03721af11,145.0,0.0,179.0,202.0,8.0,824.0,869.0,28.0,10.5352
920,65c21d0abf85afd03721af13,136.0,162.0,126.0,172.0,10.0,923.0,764.0,28.0,29.0683
922,65c21d0abf85afd03721af15,255.0,99.0,77.0,189.0,6.0,919.0,749.0,28.0,33.7981
924,65c21d0abf85afd03721af17,136.0,196.0,98.0,199.0,6.0,847.0,783.0,28.0,26.9654
926,65c21d0abf85afd03721af19,162.0,214.0,164.0,202.0,10.0,820.0,680.0,28.0,30.6472
928,65c21d0abf85afd03721af1b,149.0,153.0,194.0,192.0,8.0,935.0,623.0,28.0,24.5798
930,65c21d0abf85afd03721af1d,159.0,209.0,161.0,201.0,7.0,848.0,669.0,28.0,30.8816
932,65c21d0abf85afd03721af1f,154.0,174.0,185.0,228.0,7.0,845.0,612.0,28.0,24.3385
934,65c21d0abf85afd03721af21,184.0,86.0,190.0,213.0,6.0,923.0,623.0,28.0,22.932
936,65c21d0abf85afd03721af23,236.9,91.7,71.5,246.9,6.0,852.9,695.4,28.0,28.6298
938,65c21d0abf85afd03721af25,154.8,183.4,0.0,193.3,9.1,1047.4,696.7,28.0,18.2877
940,65c21d0abf85afd03721af27,296.0,0.0,106.7,221.4,10.5,819.2,778.4,28.0,31.4201
942,65c21d0abf85afd03721af29,313.3,145.0,0.0,178.5,8.0,867.2,824.0,28.0,40.9252
944,65c21d0abf85afd03721af2b,153.1,145.0,113.0,178.5,8.0,1001.9,688.7,28.0,25.5596
946,65c21d0abf85afd03721af2d,149.5,236.0,0.0,175.8,12.6,846.8,892.7,28.0,32.9638
948,65c21d0abf85afd03721af2f,153.1,145.0,113.0,178.5,8.0,867.2,824.0,28.0,26.2332
950,65c21d0abf85afd03721af31,326.5,0.0,137.9,199.0,10.8,801.1,792.5,28.0,38.6307
952,65c21d0abf85afd03721af33,261.9,110.5,86.1,195.4,5.0,895.2,732.6,28.0,33.7188
954,65c21d0abf85afd03721af35,150.7,0.0,185.3,166.7,15.6,1074.5,678.0,28.0,13.4613
956,65c21d0abf85afd03721af37,149.0,117.6,91.7,182.9,7.1,953.4,780.3,28.0,23.5242
958,65c21d0abf85afd03721af39,259.9,100.6,78.4,170.6,10.4,935.7,762.9,28.0,49.7733
960,65c21d0abf85afd03721af3b,284.0,119.7,0.0,168.3,7.2,970.4,794.2,28.0,40.9349
962,65c21d0abf85afd03721af3d,144.8,0.0,133.6,180.8,11.1,979.5,811.5,28.0,13.2021
964,65c21d0abf85afd03721af3f,143.7,170.2,132.6,191.6,8.5,814.1,805.3,28.0,29.8709
966,65c21d0abf85afd03721af41,154.8,0.0,142.8,193.3,9.1,1047.4,696.7,28.0,12.4595
968,65c21d0abf85afd03721af43,134.7,0.0,165.7,180.2,10.0,961.0,804.9,28.0,13.2938
970,65c21d0abf85afd03721af45,314.0,145.3,113.2,178.9,8.0,869.1,690.2,28.0,46.2342
972,65c21d0abf85afd03721af47,145.7,172.6,0.0,181.9,3.4,985.8,816.8,28.0,23.7442
974,65c21d0abf85afd03721af49,148.1,0.0,182.1,181.4,15.0,838.9,884.3,28.0,15.5263
976,65c21d0abf85afd03721af4b,298.1,0.0,107.5,163.6,12.8,953.2,784.0,28.0,35.8659
978,65c21d0abf85afd03721af4d,155.2,183.9,143.2,193.8,9.2,879.6,698.5,28.0,28.9911
980,65c21d0abf85afd03721af4f,147.8,175.1,0.0,171.2,2.2,1000.0,828.5,28.0,26.9227
982,65c21d0abf85afd03721af51,312.7,0.0,0.0,178.1,8.0,999.7,822.2,28.0,25.1038
984,65c21d0abf85afd03721af53,154.8,0.0,142.8,193.3,9.1,877.2,867.7,28.0,9.73816
986,65c21d0abf85afd03721af55,272.8,105.1,81.8,209.7,9.0,904.0,679.7,28.0,37.171
988,65c21d0abf85afd03721af57,153.6,144.2,112.3,220.1,10.1,923.2,657.9,28.0,16.504
990,65c21d0abf85afd03721af59,151.8,178.1,138.7,167.5,18.3,944.0,694.6,28.0,36.3499
992,65c21d0abf85afd03721af5b,143.6,0.0,174.9,158.4,17.9,942.7,844.5,28.0,15.4236
994,65c21d0abf85afd03721af5d,374.3,0.0,0.0,190.2,6.7,1013.2,730.4,28.0,39.0561
996,65c21d0abf85afd03721af5f,152.6,238.7,0.0,200.0,6.3,1001.8,683.9,28.0,26.8599
998,65c21d0abf85afd03721af61,304.8,0.0,99.6,196.0,9.8,959.4,705.2,28.0,30.1232
1000,65c21d0abf85afd03721af63,141.9,166.6,129.7,173.5,10.9,882.6,785.3,28.0,44.6119
1002,65c21d0abf85afd03721af65,321.3,164.2,0.0,190.5,4.6,870.0,774.0,28.0,57.2182
1004,65c21d0abf85afd03721af67,279.8,128.9,100.4,172.4,9.5,825.1,804.9,28.0,52.827
1006,65c21d0abf85afd03721af69,164.6,0.0,150.4,181.6,11.7,1023.3,728.9,28.0,18.0339
1008,65c21d0abf85afd03721af6b,160.2,188.0,146.4,203.2,11.3,828.7,709.7,28.0,35.3143
1010,65c21d0abf85afd03721af6d,317.9,0.0,126.5,209.7,5.7,860.5,736.6,28.0,40.062
1012,65c21d0abf85afd03721af6f,325.6,166.4,0.0,174.0,8.9,881.6,790.0,28.0,61.2358
1014,65c21d0abf85afd03721af71,132.0,206.5,160.9,178.9,5.5,866.9,735.6,28.0,33.3065
1016,65c21d0abf85afd03721af73,164.2,0.0,200.1,181.2,12.6,849.3,846.0,28.0,15.0913
1018,65c21d0abf85afd03721af75,321.4,0.0,127.9,182.5,11.5,870.1,779.7,28.0,37.2655
1020,65c21d0abf85afd03721af77,288.4,121.0,0.0,177.4,7.0,907.9,829.5,28.0,42.1401
1022,65c21d0abf85afd03721af79,264.5,111.0,86.5,195.5,5.9,832.6,790.4,28.0,41.5423
1024,65c21d0abf85afd03721af7b,166.0,259.7,0.0,183.2,12.7,858.8,826.8,28.0,37.917
1026,65c21d0abf85afd03721af7d,322.2,0.0,115.6,196.0,10.4,817.9,813.4,28.0,31.1788
1028,65c21d0abf85afd03721af7f,159.1,186.7,0.0,175.6,11.3,989.6,788.9,28.0,32.768
1029,65c21d0abf85afd03721af80,260.9,100.5,78.3,200.6,8.6,864.5,761.5,28.0,32.4012